"rt","response","trial_type","trial_index","time_elapsed","internal_node_id","stimulus","view_history","success","timeout","failed_images","failed_audio","failed_video","stimulus_file","language","correct_response","trial_part","correct"
"5942","{""prolific_id"":""66b3dc1490445aa410abd41e""}","survey-html-form","0","5957","0.0-0.0","","","","","","","","","","","",""
"6174","0","html-button-response","1","12133","0.0-1.0","
      <p style=""font-size:0.6em; text-align:center; margin-top:1em; padding: 1em"">
        Note: The consent form below is designed to cover multiple studies, and therefore includes references to a communication ""partner."" <br> However, this is not applicable to the current study you are about to participate in. <br>
        Please disregard any statements referring to group work or partners. All other information in the consent form applies to this study.
      </p>
      <div style=""font-size:0.7em; max-width:800px; max-height:600px; overflow-y:auto; 
                  border:1px solid #ccc; padding:1em; margin:auto;"">
        
    <h3 style=""text-align:center;"">STANFORD UNIVERSITY</h3>
    <h2 style=""text-align:center; margin-top:0;"">Research Consent Form</h2>

    <p><strong>Protocol Director:</strong> Robert Hawkins</p>
    <p><strong>Protocol Title:</strong> Communication and social cognition in natural audiovisual contexts</p>
    <p><strong>IRB#:</strong> 77226</p>

    <p><strong>DESCRIPTION:</strong> You are invited to participate in a research study about language and communication. The purpose of the research is to understand how you interact and communicate with other people in naturalistic settings as a fluent English speaker. This research will be conducted through the Prolific platform, including participants from the US, UK, and Canada. If you decide to participate in this research, you will play a communication game in a group with one or more partners.</p>

    <p><strong>TIME INVOLVEMENT:</strong> The task will last the amount of time advertised on Prolific. You are free to withdraw from the study at any time.</p>

    <p><strong>RISKS AND BENEFITS:</strong> You may become frustrated if your partner gets distracted, or experience discomfort if other participants in your group send text that is inappropriate for the task. We ask you to please be respectful of other participants you might be interacting with to mitigate these risks. You may also experience discomfort when being asked to discuss or challenge emotionally salient political beliefs. Study data will be stored securely, in compliance with Stanford University standards, minimizing the risk of confidentiality breach. This study advances our scientific understanding of how people communicate and collaborate in naturalistic settings. This study may lead to further insights about what can go wrong in teamwork, suggest potential interventions to overcome these barriers, and help to develop assistive technologies that collaborate with human partners. We cannot and do not guarantee or promise that you will receive any benefits from this study.</p>

    <p><strong>PAYMENTS:</strong> You will receive payment in the amount advertised on Prolific. If you do not complete this study, you will receive prorated payment based on the time that you have spent. Additionally, you may be eligible for bonus payments as described in the instructions.</p>

    <p><strong>PARTICIPANT’S RIGHTS:</strong> If you have read this form and have decided to participate in this project, please understand your participation is voluntary and you have the right to withdraw your consent or discontinue participation at any time without penalty or loss of benefits to which you are otherwise entitled. The alternative is not to participate. You have the right to refuse to answer particular questions. The results of this research study may be presented at scientific or professional meetings or published in scientific journals. Your individual privacy will be maintained in all published and written data resulting from the study. In accordance with scientific norms, the data from this study may be used or shared with other researchers for future research (after removing personally identifying information) without additional consent from you.</p>

    <p><strong>CONTACT INFORMATION:</strong><br>
      <strong>Questions:</strong><br>
      If you have any questions, concerns, or complaints about this research, its procedures, risks, and benefits, contact the Protocol Director, Robert Hawkins (rdhawkins@stanford.edu, 217-549-6923).<br>
      <strong>Independent Contact:</strong><br>
      If you are not satisfied with how this study is being conducted, or if you have concerns, complaints, or general questions about the research or your rights as a participant, please contact the Stanford Institutional Review Board (IRB) to speak to someone independent of the research team at 650-723-2480 or toll free at 1-866-680-2906, or email at irbnonmed@stanford.edu. You can also write to the Stanford IRB, Stanford University, 1705 El Camino Real, Palo Alto, CA 94306. Please save or print a copy of this page for your records.
    </p>

    <p style=""text-align:center; font-style:italic; margin-top:1em;"">
      If you agree to participate in this research, please click “I Agree” to continue.
    </p>
  
      </div>
      <p style=""text-align:center; margin-top:1em; padding: 1em"">
        By clicking “I Agree,” you confirm that you have read the above and agree to participate.
      </p>
    ","","","","","","","","","","",""
"77810","","instructions","2","89944","0.0-2.0","","[{""page_index"":0,""viewing_time"":1535},{""page_index"":1,""viewing_time"":1310},{""page_index"":2,""viewing_time"":1090},{""page_index"":3,""viewing_time"":3826},{""page_index"":4,""viewing_time"":1239},{""page_index"":5,""viewing_time"":36066},{""page_index"":6,""viewing_time"":2456},{""page_index"":7,""viewing_time"":19646},{""page_index"":8,""viewing_time"":3735},{""page_index"":9,""viewing_time"":1769},{""page_index"":10,""viewing_time"":5136}]","","","","","","","","","",""
"","","preload","3","99001","0.0-3.0","","","true","false","[]","[]","[]","","","","",""
"null","null","audio-keyboard-response","4","103135","0.0-4.0","stim/final_stim_scaled/japanese_surprise__F1_surprise_regular_10__cut_intscaled.wav","","","","","","","stim/final_stim_scaled/japanese_surprise__F1_surprise_regular_10__cut_intscaled.wav","","","",""
"7165","4","html-button-response","5","110302","0.0-5.0","<p>Which emotion did the speaker express?</p>","","","","","","","stim/final_stim_scaled/japanese_surprise__F1_surprise_regular_10__cut_intscaled.wav","japanese","Surprise","choice","true"
"null","null","audio-keyboard-response","6","114922","0.0-6.0","stim/final_stim_scaled/thai_happy__s001_clip_actor002_script3_2_3b_intscaled.wav","","","","","","","stim/final_stim_scaled/thai_happy__s001_clip_actor002_script3_2_3b_intscaled.wav","","","",""
"3584","5","html-button-response","7","118507","0.0-7.0","<p>Which emotion did the speaker express?</p>","","","","","","","stim/final_stim_scaled/thai_happy__s001_clip_actor002_script3_2_3b_intscaled.wav","thai","Happy","choice","false"
"null","null","audio-keyboard-response","8","127773","0.0-8.0","stim/final_stim_scaled/thai_sad__s013_clip_actor026_script3_2_4b_intscaled.wav","","","","","","","stim/final_stim_scaled/thai_sad__s013_clip_actor026_script3_2_4b_intscaled.wav","","","",""
"1330","5","html-button-response","9","129105","0.0-9.0","<p>Which emotion did the speaker express?</p>","","","","","","","stim/final_stim_scaled/thai_sad__s013_clip_actor026_script3_2_4b_intscaled.wav","thai","Sad","choice","false"
"null","null","audio-keyboard-response","10","133742","0.0-10.0","stim/final_stim_scaled/french_happy__10-J-2-3_intscaled.wav","","","","","","","stim/final_stim_scaled/french_happy__10-J-2-3_intscaled.wav","","","",""
"4919","4","html-button-response","11","138663","0.0-11.0","<p>Which emotion did the speaker express?</p>","","","","","","","stim/final_stim_scaled/french_happy__10-J-2-3_intscaled.wav","french","Happy","choice","false"
"null","null","audio-keyboard-response","12","145463","0.0-12.0","stim/final_stim_scaled/thai_sad__s002_clip_actor004_script2_2_4b_intscaled.wav","","","","","","","stim/final_stim_scaled/thai_sad__s002_clip_actor004_script2_2_4b_intscaled.wav","","","",""
"1571","0","html-button-response","13","147035","0.0-13.0","<p>Which emotion did the speaker express?</p>","","","","","","","stim/final_stim_scaled/thai_sad__s002_clip_actor004_script2_2_4b_intscaled.wav","thai","Sad","choice","false"
"null","null","audio-keyboard-response","14","152203","0.0-14.0","stim/final_stim_scaled/french_happy__05-J-2-2_intscaled.wav","","","","","","","stim/final_stim_scaled/french_happy__05-J-2-2_intscaled.wav","","","",""
"2044","1","html-button-response","15","154248","0.0-15.0","<p>Which emotion did the speaker express?</p>","","","","","","","stim/final_stim_scaled/french_happy__05-J-2-2_intscaled.wav","french","Happy","choice","false"
"null","null","audio-keyboard-response","16","157882","0.0-16.0","stim/final_stim_scaled/greek_angry__a15 (3)_intscaled.wav","","","","","","","stim/final_stim_scaled/greek_angry__a15 (3)_intscaled.wav","","","",""
"3286","5","html-button-response","17","161169","0.0-17.0","<p>Which emotion did the speaker express?</p>","","","","","","","stim/final_stim_scaled/greek_angry__a15 (3)_intscaled.wav","greek","Angry","choice","false"
"null","null","audio-keyboard-response","18","164842","0.0-18.0","stim/final_stim_scaled/greek_fear__f03 (4)_intscaled.wav","","","","","","","stim/final_stim_scaled/greek_fear__f03 (4)_intscaled.wav","","","",""
"1596","3","html-button-response","19","166439","0.0-19.0","<p>Which emotion did the speaker express?</p>","","","","","","","stim/final_stim_scaled/greek_fear__f03 (4)_intscaled.wav","greek","Fear","choice","true"
"null","null","audio-keyboard-response","20","169812","0.0-20.0","stim/final_stim_scaled/french_angry__03-C-2-1_intscaled.wav","","","","","","","stim/final_stim_scaled/french_angry__03-C-2-1_intscaled.wav","","","",""
"1280","5","html-button-response","21","171094","0.0-21.0","<p>Which emotion did the speaker express?</p>","","","","","","","stim/final_stim_scaled/french_angry__03-C-2-1_intscaled.wav","french","Angry","choice","false"
"null","null","audio-keyboard-response","22","177092","0.0-22.0","stim/final_stim_scaled/greek_happy__h09 (1)_intscaled.wav","","","","","","","stim/final_stim_scaled/greek_happy__h09 (1)_intscaled.wav","","","",""
"1966","0","html-button-response","23","179059","0.0-23.0","<p>Which emotion did the speaker express?</p>","","","","","","","stim/final_stim_scaled/greek_happy__h09 (1)_intscaled.wav","greek","Happy","choice","true"
"null","null","audio-keyboard-response","24","184373","0.0-24.0","stim/final_stim_scaled/french_surprise__10-S-2-4_intscaled.wav","","","","","","","stim/final_stim_scaled/french_surprise__10-S-2-4_intscaled.wav","","","",""
"1554","4","html-button-response","25","185927","0.0-25.0","<p>Which emotion did the speaker express?</p>","","","","","","","stim/final_stim_scaled/french_surprise__10-S-2-4_intscaled.wav","french","Surprise","choice","true"
"null","null","audio-keyboard-response","26","192232","0.0-26.0","stim/final_stim_scaled/thai_neutral__s008_clip_actor016_script3_2_1b_intscaled.wav","","","","","","","stim/final_stim_scaled/thai_neutral__s008_clip_actor016_script3_2_1b_intscaled.wav","","","",""
"1122","5","html-button-response","27","193355","0.0-27.0","<p>Which emotion did the speaker express?</p>","","","","","","","stim/final_stim_scaled/thai_neutral__s008_clip_actor016_script3_2_1b_intscaled.wav","thai","Neutral","choice","true"
"null","null","audio-keyboard-response","28","196233","0.0-28.0","stim/final_stim_scaled/greek_fear__f18 (1)_intscaled.wav","","","","","","","stim/final_stim_scaled/greek_fear__f18 (1)_intscaled.wav","","","",""
"885","5","html-button-response","29","197119","0.0-29.0","<p>Which emotion did the speaker express?</p>","","","","","","","stim/final_stim_scaled/greek_fear__f18 (1)_intscaled.wav","greek","Fear","choice","false"
"null","null","audio-keyboard-response","30","200542","0.0-30.0","stim/final_stim_scaled/japanese_sad__M1_sad_regular_06__cut_intscaled.wav","","","","","","","stim/final_stim_scaled/japanese_sad__M1_sad_regular_06__cut_intscaled.wav","","","",""
"1511","1","html-button-response","31","202054","0.0-31.0","<p>Which emotion did the speaker express?</p>","","","","","","","stim/final_stim_scaled/japanese_sad__M1_sad_regular_06__cut_intscaled.wav","japanese","Sad","choice","true"
"null","null","audio-keyboard-response","32","204842","0.0-32.0","stim/final_stim_scaled/japanese_angry__M1_anger_regular_27__cut_intscaled.wav","","","","","","","stim/final_stim_scaled/japanese_angry__M1_anger_regular_27__cut_intscaled.wav","","","",""
"2384","2","html-button-response","33","207228","0.0-33.0","<p>Which emotion did the speaker express?</p>","","","","","","","stim/final_stim_scaled/japanese_angry__M1_anger_regular_27__cut_intscaled.wav","japanese","Angry","choice","true"
"null","null","audio-keyboard-response","34","210843","0.0-34.0","stim/final_stim_scaled/french_fear__03-P-2-6_intscaled.wav","","","","","","","stim/final_stim_scaled/french_fear__03-P-2-6_intscaled.wav","","","",""
"983","5","html-button-response","35","211828","0.0-35.0","<p>Which emotion did the speaker express?</p>","","","","","","","stim/final_stim_scaled/french_fear__03-P-2-6_intscaled.wav","french","Fear","choice","false"
"null","null","audio-keyboard-response","36","216792","0.0-36.0","stim/final_stim_scaled/french_sad__10-T-2-1_intscaled.wav","","","","","","","stim/final_stim_scaled/french_sad__10-T-2-1_intscaled.wav","","","",""
"912","1","html-button-response","37","217705","0.0-37.0","<p>Which emotion did the speaker express?</p>","","","","","","","stim/final_stim_scaled/french_sad__10-T-2-1_intscaled.wav","french","Sad","choice","true"
"null","null","audio-keyboard-response","38","223643","0.0-38.0","stim/final_stim_scaled/thai_happy__s008_clip_actor016_script3_2_3b_intscaled.wav","","","","","","","stim/final_stim_scaled/thai_happy__s008_clip_actor016_script3_2_3b_intscaled.wav","","","",""
"2361","3","html-button-response","39","226005","0.0-39.0","<p>Which emotion did the speaker express?</p>","","","","","","","stim/final_stim_scaled/thai_happy__s008_clip_actor016_script3_2_3b_intscaled.wav","thai","Happy","choice","false"
"null","null","audio-keyboard-response","40","230922","0.0-40.0","stim/final_stim_scaled/attentioncheck_fear.mp3","","","","","","","stim/final_stim_scaled/attentioncheck_fear.mp3","","","",""
"1021","3","html-button-response","41","231945","0.0-41.0","<p>Which emotion did the speaker express?</p>","","","","","","","stim/final_stim_scaled/attentioncheck_fear.mp3","","Fear","attention_check","true"
"1021","3","html-button-response","41","231947","0.0-41.0","<p>Which emotion did the speaker express?</p>","","","","","","","stim/final_stim_scaled/attentioncheck_fear.mp3","","Fear","attention_check","true"
"null","null","audio-keyboard-response","42","236422","0.0-43.0","stim/final_stim_scaled/french_surprise__05-S-2-3_intscaled.wav","","","","","","","stim/final_stim_scaled/french_surprise__05-S-2-3_intscaled.wav","","","",""
"696","4","html-button-response","43","237119","0.0-44.0","<p>Which emotion did the speaker express?</p>","","","","","","","stim/final_stim_scaled/french_surprise__05-S-2-3_intscaled.wav","french","Surprise","choice","true"
"null","null","audio-keyboard-response","44","240363","0.0-45.0","stim/final_stim_scaled/greek_happy__h19 (2)_intscaled.wav","","","","","","","stim/final_stim_scaled/greek_happy__h19 (2)_intscaled.wav","","","",""
"1183","0","html-button-response","45","241547","0.0-46.0","<p>Which emotion did the speaker express?</p>","","","","","","","stim/final_stim_scaled/greek_happy__h19 (2)_intscaled.wav","greek","Happy","choice","true"
"null","null","audio-keyboard-response","46","246972","0.0-47.0","stim/final_stim_scaled/french_angry__10-C-2-6_intscaled.wav","","","","","","","stim/final_stim_scaled/french_angry__10-C-2-6_intscaled.wav","","","",""
"5838","4","html-button-response","47","252811","0.0-48.0","<p>Which emotion did the speaker express?</p>","","","","","","","stim/final_stim_scaled/french_angry__10-C-2-6_intscaled.wav","french","Angry","choice","false"
"null","null","audio-keyboard-response","48","255782","0.0-49.0","stim/final_stim_scaled/japanese_fear__M1_fear_regular_16__cut_intscaled.wav","","","","","","","stim/final_stim_scaled/japanese_fear__M1_fear_regular_16__cut_intscaled.wav","","","",""
"1429","1","html-button-response","49","257212","0.0-50.0","<p>Which emotion did the speaker express?</p>","","","","","","","stim/final_stim_scaled/japanese_fear__M1_fear_regular_16__cut_intscaled.wav","japanese","Fear","choice","false"
"null","null","audio-keyboard-response","50","261153","0.0-51.0","stim/final_stim_scaled/thai_angry__s002_clip_actor004_script1_2_2b_intscaled.wav","","","","","","","stim/final_stim_scaled/thai_angry__s002_clip_actor004_script1_2_2b_intscaled.wav","","","",""
"1341","2","html-button-response","51","262495","0.0-52.0","<p>Which emotion did the speaker express?</p>","","","","","","","stim/final_stim_scaled/thai_angry__s002_clip_actor004_script1_2_2b_intscaled.wav","thai","Angry","choice","true"
"null","null","audio-keyboard-response","52","268872","0.0-53.0","stim/final_stim_scaled/thai_sad__s008_clip_actor016_script1_2_4b_intscaled.wav","","","","","","","stim/final_stim_scaled/thai_sad__s008_clip_actor016_script1_2_4b_intscaled.wav","","","",""
"938","1","html-button-response","53","269811","0.0-54.0","<p>Which emotion did the speaker express?</p>","","","","","","","stim/final_stim_scaled/thai_sad__s008_clip_actor016_script1_2_4b_intscaled.wav","thai","Sad","choice","true"
"null","null","audio-keyboard-response","54","273752","0.0-55.0","stim/final_stim_scaled/french_surprise__08-S-2-2_intscaled.wav","","","","","","","stim/final_stim_scaled/french_surprise__08-S-2-2_intscaled.wav","","","",""
"1224","4","html-button-response","55","274977","0.0-56.0","<p>Which emotion did the speaker express?</p>","","","","","","","stim/final_stim_scaled/french_surprise__08-S-2-2_intscaled.wav","french","Surprise","choice","true"
"null","null","audio-keyboard-response","56","278492","0.0-57.0","stim/final_stim_scaled/french_fear__08-P-2-1_intscaled.wav","","","","","","","stim/final_stim_scaled/french_fear__08-P-2-1_intscaled.wav","","","",""
"2175","3","html-button-response","57","280667","0.0-58.0","<p>Which emotion did the speaker express?</p>","","","","","","","stim/final_stim_scaled/french_fear__08-P-2-1_intscaled.wav","french","Fear","choice","true"
"null","null","audio-keyboard-response","58","284713","0.0-59.0","stim/final_stim_scaled/french_fear__05-P-2-5_intscaled.wav","","","","","","","stim/final_stim_scaled/french_fear__05-P-2-5_intscaled.wav","","","",""
"584","3","html-button-response","59","285298","0.0-60.0","<p>Which emotion did the speaker express?</p>","","","","","","","stim/final_stim_scaled/french_fear__05-P-2-5_intscaled.wav","french","Fear","choice","true"
"null","null","audio-keyboard-response","60","289593","0.0-61.0","stim/final_stim_scaled/french_neutral__05-N-1-3_intscaled.wav","","","","","","","stim/final_stim_scaled/french_neutral__05-N-1-3_intscaled.wav","","","",""
"1036","1","html-button-response","61","290629","0.0-62.0","<p>Which emotion did the speaker express?</p>","","","","","","","stim/final_stim_scaled/french_neutral__05-N-1-3_intscaled.wav","french","Neutral","choice","false"
"null","null","audio-keyboard-response","62","294873","0.0-63.0","stim/final_stim_scaled/french_sad__08-T-2-3_intscaled.wav","","","","","","","stim/final_stim_scaled/french_sad__08-T-2-3_intscaled.wav","","","",""
"651","1","html-button-response","63","295526","0.0-64.0","<p>Which emotion did the speaker express?</p>","","","","","","","stim/final_stim_scaled/french_sad__08-T-2-3_intscaled.wav","french","Sad","choice","true"
"null","null","audio-keyboard-response","64","298492","0.0-65.0","stim/final_stim_scaled/greek_sad__s16 (2)_intscaled.wav","","","","","","","stim/final_stim_scaled/greek_sad__s16 (2)_intscaled.wav","","","",""
"898","5","html-button-response","65","299391","0.0-66.0","<p>Which emotion did the speaker express?</p>","","","","","","","stim/final_stim_scaled/greek_sad__s16 (2)_intscaled.wav","greek","Sad","choice","false"
"null","null","audio-keyboard-response","66","302183","0.0-67.0","stim/final_stim_scaled/greek_fear__f06 (2)_intscaled.wav","","","","","","","stim/final_stim_scaled/greek_fear__f06 (2)_intscaled.wav","","","",""
"1316","3","html-button-response","67","303500","0.0-68.0","<p>Which emotion did the speaker express?</p>","","","","","","","stim/final_stim_scaled/greek_fear__f06 (2)_intscaled.wav","greek","Fear","choice","true"
"null","null","audio-keyboard-response","68","309763","0.0-69.0","stim/final_stim_scaled/thai_sad__s001_clip_actor002_script1_2_4b_intscaled.wav","","","","","","","stim/final_stim_scaled/thai_sad__s001_clip_actor002_script1_2_4b_intscaled.wav","","","",""
"727","5","html-button-response","69","310491","0.0-70.0","<p>Which emotion did the speaker express?</p>","","","","","","","stim/final_stim_scaled/thai_sad__s001_clip_actor002_script1_2_4b_intscaled.wav","thai","Sad","choice","false"
"null","null","audio-keyboard-response","70","315222","0.0-71.0","stim/final_stim_scaled/thai_neutral__s013_clip_actor026_script1_2_1b_intscaled.wav","","","","","","","stim/final_stim_scaled/thai_neutral__s013_clip_actor026_script1_2_1b_intscaled.wav","","","",""
"591","5","html-button-response","71","315815","0.0-72.0","<p>Which emotion did the speaker express?</p>","","","","","","","stim/final_stim_scaled/thai_neutral__s013_clip_actor026_script1_2_1b_intscaled.wav","thai","Neutral","choice","true"
"null","null","audio-keyboard-response","72","320953","0.0-73.0","stim/final_stim_scaled/greek_sad__s06 (1)_intscaled.wav","","","","","","","stim/final_stim_scaled/greek_sad__s06 (1)_intscaled.wav","","","",""
"569","5","html-button-response","73","321524","0.0-74.0","<p>Which emotion did the speaker express?</p>","","","","","","","stim/final_stim_scaled/greek_sad__s06 (1)_intscaled.wav","greek","Sad","choice","false"
"null","null","audio-keyboard-response","74","326633","0.0-75.0","stim/final_stim_scaled/thai_happy__s013_clip_actor026_script2_2_3b_intscaled.wav","","","","","","","stim/final_stim_scaled/thai_happy__s013_clip_actor026_script2_2_3b_intscaled.wav","","","",""
"1694","5","html-button-response","75","328329","0.0-76.0","<p>Which emotion did the speaker express?</p>","","","","","","","stim/final_stim_scaled/thai_happy__s013_clip_actor026_script2_2_3b_intscaled.wav","thai","Happy","choice","false"
"null","null","audio-keyboard-response","76","331083","0.0-77.0","stim/final_stim_scaled/japanese_angry__M2_anger_regular_18__cut_intscaled.wav","","","","","","","stim/final_stim_scaled/japanese_angry__M2_anger_regular_18__cut_intscaled.wav","","","",""
"823","4","html-button-response","77","331907","0.0-78.0","<p>Which emotion did the speaker express?</p>","","","","","","","stim/final_stim_scaled/japanese_angry__M2_anger_regular_18__cut_intscaled.wav","japanese","Angry","choice","false"
"null","null","audio-keyboard-response","78","336333","0.0-79.0","stim/final_stim_scaled/thai_happy__s002_clip_actor004_script1_2_3b_intscaled.wav","","","","","","","stim/final_stim_scaled/thai_happy__s002_clip_actor004_script1_2_3b_intscaled.wav","","","",""
"4109","2","html-button-response","79","340444","0.0-80.0","<p>Which emotion did the speaker express?</p>","","","","","","","stim/final_stim_scaled/thai_happy__s002_clip_actor004_script1_2_3b_intscaled.wav","thai","Happy","choice","false"
"null","null","audio-keyboard-response","80","345413","0.0-81.0","stim/final_stim_scaled/attentioncheck_sad.mp3","","","","","","","stim/final_stim_scaled/attentioncheck_sad.mp3","","","",""
"1187","1","html-button-response","81","346601","0.0-82.0","<p>Which emotion did the speaker express?</p>","","","","","","","stim/final_stim_scaled/attentioncheck_sad.mp3","","Sad","attention_check","true"
"1187","1","html-button-response","81","346602","0.0-82.0","<p>Which emotion did the speaker express?</p>","","","","","","","stim/final_stim_scaled/attentioncheck_sad.mp3","","Sad","attention_check","true"
"null","null","audio-keyboard-response","82","351182","0.0-84.0","stim/final_stim_scaled/french_neutral__10-N-1-2_intscaled.wav","","","","","","","stim/final_stim_scaled/french_neutral__10-N-1-2_intscaled.wav","","","",""
"5402","5","html-button-response","83","356586","0.0-85.0","<p>Which emotion did the speaker express?</p>","","","","","","","stim/final_stim_scaled/french_neutral__10-N-1-2_intscaled.wav","french","Neutral","choice","true"
"null","null","audio-keyboard-response","84","361883","0.0-86.0","stim/final_stim_scaled/french_sad__05-T-2-5_intscaled.wav","","","","","","","stim/final_stim_scaled/french_sad__05-T-2-5_intscaled.wav","","","",""
"2032","1","html-button-response","85","363916","0.0-87.0","<p>Which emotion did the speaker express?</p>","","","","","","","stim/final_stim_scaled/french_sad__05-T-2-5_intscaled.wav","french","Sad","choice","true"
"null","null","audio-keyboard-response","86","367003","0.0-88.0","stim/final_stim_scaled/japanese_happy__F1_happy_regular_40__cut_intscaled.wav","","","","","","","stim/final_stim_scaled/japanese_happy__F1_happy_regular_40__cut_intscaled.wav","","","",""
"888","3","html-button-response","87","367891","0.0-89.0","<p>Which emotion did the speaker express?</p>","","","","","","","stim/final_stim_scaled/japanese_happy__F1_happy_regular_40__cut_intscaled.wav","japanese","Happy","choice","false"
"null","null","audio-keyboard-response","88","371782","0.0-90.0","stim/final_stim_scaled/french_happy__08-J-2-1_intscaled.wav","","","","","","","stim/final_stim_scaled/french_happy__08-J-2-1_intscaled.wav","","","",""
"2679","2","html-button-response","89","374463","0.0-91.0","<p>Which emotion did the speaker express?</p>","","","","","","","stim/final_stim_scaled/french_happy__08-J-2-1_intscaled.wav","french","Happy","choice","false"
"null","null","audio-keyboard-response","90","377962","0.0-92.0","stim/final_stim_scaled/french_sad__03-T-2-4_intscaled.wav","","","","","","","stim/final_stim_scaled/french_sad__03-T-2-4_intscaled.wav","","","",""
"647","1","html-button-response","91","378610","0.0-93.0","<p>Which emotion did the speaker express?</p>","","","","","","","stim/final_stim_scaled/french_sad__03-T-2-4_intscaled.wav","french","Sad","choice","true"
"null","null","audio-keyboard-response","92","382213","0.0-94.0","stim/final_stim_scaled/japanese_surprise__M1_surprise_regular_32__cut_intscaled.wav","","","","","","","stim/final_stim_scaled/japanese_surprise__M1_surprise_regular_32__cut_intscaled.wav","","","",""
"1548","4","html-button-response","93","383762","0.0-95.0","<p>Which emotion did the speaker express?</p>","","","","","","","stim/final_stim_scaled/japanese_surprise__M1_surprise_regular_32__cut_intscaled.wav","japanese","Surprise","choice","true"
"null","null","audio-keyboard-response","94","387283","0.0-96.0","stim/final_stim_scaled/japanese_surprise__F2_surprise_regular_40__cut_intscaled.wav","","","","","","","stim/final_stim_scaled/japanese_surprise__F2_surprise_regular_40__cut_intscaled.wav","","","",""
"664","4","html-button-response","95","387948","0.0-97.0","<p>Which emotion did the speaker express?</p>","","","","","","","stim/final_stim_scaled/japanese_surprise__F2_surprise_regular_40__cut_intscaled.wav","japanese","Surprise","choice","true"
"null","null","audio-keyboard-response","96","391743","0.0-98.0","stim/final_stim_scaled/greek_angry__a02 (2)_intscaled.wav","","","","","","","stim/final_stim_scaled/greek_angry__a02 (2)_intscaled.wav","","","",""
"1550","4","html-button-response","97","393294","0.0-99.0","<p>Which emotion did the speaker express?</p>","","","","","","","stim/final_stim_scaled/greek_angry__a02 (2)_intscaled.wav","greek","Angry","choice","false"
"null","null","audio-keyboard-response","98","398433","0.0-100.0","stim/final_stim_scaled/greek_happy__h02 (4)_intscaled.wav","","","","","","","stim/final_stim_scaled/greek_happy__h02 (4)_intscaled.wav","","","",""
"1189","0","html-button-response","99","399624","0.0-101.0","<p>Which emotion did the speaker express?</p>","","","","","","","stim/final_stim_scaled/greek_happy__h02 (4)_intscaled.wav","greek","Happy","choice","true"
"null","null","audio-keyboard-response","100","403313","0.0-102.0","stim/final_stim_scaled/thai_neutral__s002_clip_actor004_script1_2_1b_intscaled.wav","","","","","","","stim/final_stim_scaled/thai_neutral__s002_clip_actor004_script1_2_1b_intscaled.wav","","","",""
"511","5","html-button-response","101","403824","0.0-103.0","<p>Which emotion did the speaker express?</p>","","","","","","","stim/final_stim_scaled/thai_neutral__s002_clip_actor004_script1_2_1b_intscaled.wav","thai","Neutral","choice","true"
"null","null","audio-keyboard-response","102","407622","0.0-104.0","stim/final_stim_scaled/greek_sad__s11 (4)_intscaled.wav","","","","","","","stim/final_stim_scaled/greek_sad__s11 (4)_intscaled.wav","","","",""
"1174","1","html-button-response","103","408797","0.0-105.0","<p>Which emotion did the speaker express?</p>","","","","","","","stim/final_stim_scaled/greek_sad__s11 (4)_intscaled.wav","greek","Sad","choice","true"
"null","null","audio-keyboard-response","104","413423","0.0-106.0","stim/final_stim_scaled/thai_neutral__s001_clip_actor002_script2_2_1b_intscaled.wav","","","","","","","stim/final_stim_scaled/thai_neutral__s001_clip_actor002_script2_2_1b_intscaled.wav","","","",""
"860","5","html-button-response","105","414284","0.0-107.0","<p>Which emotion did the speaker express?</p>","","","","","","","stim/final_stim_scaled/thai_neutral__s001_clip_actor002_script2_2_1b_intscaled.wav","thai","Neutral","choice","true"
"null","null","audio-keyboard-response","106","416872","0.0-108.0","stim/final_stim_scaled/japanese_sad__M2_sad_regular_11__cut_intscaled.wav","","","","","","","stim/final_stim_scaled/japanese_sad__M2_sad_regular_11__cut_intscaled.wav","","","",""
"701","1","html-button-response","107","417574","0.0-109.0","<p>Which emotion did the speaker express?</p>","","","","","","","stim/final_stim_scaled/japanese_sad__M2_sad_regular_11__cut_intscaled.wav","japanese","Sad","choice","true"
"null","null","audio-keyboard-response","108","422403","0.0-110.0","stim/final_stim_scaled/french_angry__05-C-2-4_intscaled.wav","","","","","","","stim/final_stim_scaled/french_angry__05-C-2-4_intscaled.wav","","","",""
"1420","2","html-button-response","109","423824","0.0-111.0","<p>Which emotion did the speaker express?</p>","","","","","","","stim/final_stim_scaled/french_angry__05-C-2-4_intscaled.wav","french","Angry","choice","true"
"null","null","audio-keyboard-response","110","426772","0.0-112.0","stim/final_stim_scaled/japanese_happy__M2_happy_regular_33__cut_intscaled.wav","","","","","","","stim/final_stim_scaled/japanese_happy__M2_happy_regular_33__cut_intscaled.wav","","","",""
"862","2","html-button-response","111","427635","0.0-113.0","<p>Which emotion did the speaker express?</p>","","","","","","","stim/final_stim_scaled/japanese_happy__M2_happy_regular_33__cut_intscaled.wav","japanese","Happy","choice","false"
"null","null","audio-keyboard-response","112","431733","0.0-114.0","stim/final_stim_scaled/french_neutral__08-N-1-4_intscaled.wav","","","","","","","stim/final_stim_scaled/french_neutral__08-N-1-4_intscaled.wav","","","",""
"1047","5","html-button-response","113","432780","0.0-115.0","<p>Which emotion did the speaker express?</p>","","","","","","","stim/final_stim_scaled/french_neutral__08-N-1-4_intscaled.wav","french","Neutral","choice","true"
"null","null","audio-keyboard-response","114","436543","0.0-116.0","stim/final_stim_scaled/greek_fear__f20 (3)_intscaled.wav","","","","","","","stim/final_stim_scaled/greek_fear__f20 (3)_intscaled.wav","","","",""
"3152","3","html-button-response","115","439696","0.0-117.0","<p>Which emotion did the speaker express?</p>","","","","","","","stim/final_stim_scaled/greek_fear__f20 (3)_intscaled.wav","greek","Fear","choice","true"
"null","null","audio-keyboard-response","116","443033","0.0-118.0","stim/final_stim_scaled/french_happy__03-J-2-4_intscaled.wav","","","","","","","stim/final_stim_scaled/french_happy__03-J-2-4_intscaled.wav","","","",""
"791","5","html-button-response","117","443825","0.0-119.0","<p>Which emotion did the speaker express?</p>","","","","","","","stim/final_stim_scaled/french_happy__03-J-2-4_intscaled.wav","french","Happy","choice","false"
"null","null","audio-keyboard-response","118","445533","0.0-120.0","stim/final_stim_scaled/japanese_fear__M2_fear_regular_38__cut_intscaled.wav","","","","","","","stim/final_stim_scaled/japanese_fear__M2_fear_regular_38__cut_intscaled.wav","","","",""
"950","5","html-button-response","119","446484","0.0-121.0","<p>Which emotion did the speaker express?</p>","","","","","","","stim/final_stim_scaled/japanese_fear__M2_fear_regular_38__cut_intscaled.wav","japanese","Fear","choice","false"
"null","null","audio-keyboard-response","120","452343","0.0-122.0","stim/final_stim_scaled/attentioncheck_surprise.mp3","","","","","","","stim/final_stim_scaled/attentioncheck_surprise.mp3","","","",""
"1949","4","html-button-response","121","454293","0.0-123.0","<p>Which emotion did the speaker express?</p>","","","","","","","stim/final_stim_scaled/attentioncheck_surprise.mp3","","Surprise","attention_check","true"
"1949","4","html-button-response","121","454293","0.0-123.0","<p>Which emotion did the speaker express?</p>","","","","","","","stim/final_stim_scaled/attentioncheck_surprise.mp3","","Surprise","attention_check","true"
"null","null","audio-keyboard-response","122","457532","0.0-125.0","stim/final_stim_scaled/french_surprise__03-S-2-5_intscaled.wav","","","","","","","stim/final_stim_scaled/french_surprise__03-S-2-5_intscaled.wav","","","",""
"7377","5","html-button-response","123","464910","0.0-126.0","<p>Which emotion did the speaker express?</p>","","","","","","","stim/final_stim_scaled/french_surprise__03-S-2-5_intscaled.wav","french","Surprise","choice","false"
"null","null","audio-keyboard-response","124","469183","0.0-127.0","stim/final_stim_scaled/french_angry__08-C-2-3_intscaled.wav","","","","","","","stim/final_stim_scaled/french_angry__08-C-2-3_intscaled.wav","","","",""
"2968","2","html-button-response","125","472152","0.0-128.0","<p>Which emotion did the speaker express?</p>","","","","","","","stim/final_stim_scaled/french_angry__08-C-2-3_intscaled.wav","french","Angry","choice","true"
"null","null","audio-keyboard-response","126","476862","0.0-129.0","stim/final_stim_scaled/french_fear__10-P-2-4_intscaled.wav","","","","","","","stim/final_stim_scaled/french_fear__10-P-2-4_intscaled.wav","","","",""
"2007","3","html-button-response","127","478870","0.0-130.0","<p>Which emotion did the speaker express?</p>","","","","","","","stim/final_stim_scaled/french_fear__10-P-2-4_intscaled.wav","french","Fear","choice","true"
"null","null","audio-keyboard-response","128","483202","0.0-131.0","stim/final_stim_scaled/thai_angry__s001_clip_actor002_script2_2_2b_intscaled.wav","","","","","","","stim/final_stim_scaled/thai_angry__s001_clip_actor002_script2_2_2b_intscaled.wav","","","",""
"1012","2","html-button-response","129","484215","0.0-132.0","<p>Which emotion did the speaker express?</p>","","","","","","","stim/final_stim_scaled/thai_angry__s001_clip_actor002_script2_2_2b_intscaled.wav","thai","Angry","choice","true"
"null","null","audio-keyboard-response","130","488253","0.0-133.0","stim/final_stim_scaled/japanese_sad__F1_sad_regular_40__cut_intscaled.wav","","","","","","","stim/final_stim_scaled/japanese_sad__F1_sad_regular_40__cut_intscaled.wav","","","",""
"1030","1","html-button-response","131","489284","0.0-134.0","<p>Which emotion did the speaker express?</p>","","","","","","","stim/final_stim_scaled/japanese_sad__F1_sad_regular_40__cut_intscaled.wav","japanese","Sad","choice","true"
"null","null","audio-keyboard-response","132","493043","0.0-135.0","stim/final_stim_scaled/greek_happy__h01 (3)_intscaled.wav","","","","","","","stim/final_stim_scaled/greek_happy__h01 (3)_intscaled.wav","","","",""
"6091","4","html-button-response","133","499135","0.0-136.0","<p>Which emotion did the speaker express?</p>","","","","","","","stim/final_stim_scaled/greek_happy__h01 (3)_intscaled.wav","greek","Happy","choice","false"
"null","null","audio-keyboard-response","134","502393","0.0-137.0","stim/final_stim_scaled/french_neutral__03-N-1-6_intscaled.wav","","","","","","","stim/final_stim_scaled/french_neutral__03-N-1-6_intscaled.wav","","","",""
"715","5","html-button-response","135","503110","0.0-138.0","<p>Which emotion did the speaker express?</p>","","","","","","","stim/final_stim_scaled/french_neutral__03-N-1-6_intscaled.wav","french","Neutral","choice","true"
"null","null","audio-keyboard-response","136","505313","0.0-139.0","stim/final_stim_scaled/japanese_sad__F2_sad_regular_14__cut_intscaled.wav","","","","","","","stim/final_stim_scaled/japanese_sad__F2_sad_regular_14__cut_intscaled.wav","","","",""
"1398","1","html-button-response","137","506711","0.0-140.0","<p>Which emotion did the speaker express?</p>","","","","","","","stim/final_stim_scaled/japanese_sad__F2_sad_regular_14__cut_intscaled.wav","japanese","Sad","choice","true"
"null","null","audio-keyboard-response","138","511923","0.0-141.0","stim/final_stim_scaled/thai_angry__s013_clip_actor026_script3_2_2b_intscaled.wav","","","","","","","stim/final_stim_scaled/thai_angry__s013_clip_actor026_script3_2_2b_intscaled.wav","","","",""
"1248","4","html-button-response","139","513172","0.0-142.0","<p>Which emotion did the speaker express?</p>","","","","","","","stim/final_stim_scaled/thai_angry__s013_clip_actor026_script3_2_2b_intscaled.wav","thai","Angry","choice","false"
"null","null","audio-keyboard-response","140","515363","0.0-143.0","stim/final_stim_scaled/greek_angry__a10 (1)_intscaled.wav","","","","","","","stim/final_stim_scaled/greek_angry__a10 (1)_intscaled.wav","","","",""
"1278","5","html-button-response","141","516642","0.0-144.0","<p>Which emotion did the speaker express?</p>","","","","","","","stim/final_stim_scaled/greek_angry__a10 (1)_intscaled.wav","greek","Angry","choice","false"
"null","null","audio-keyboard-response","142","519493","0.0-145.0","stim/final_stim_scaled/greek_angry__a08 (4)_intscaled.wav","","","","","","","stim/final_stim_scaled/greek_angry__a08 (4)_intscaled.wav","","","",""
"2111","2","html-button-response","143","521606","0.0-146.0","<p>Which emotion did the speaker express?</p>","","","","","","","stim/final_stim_scaled/greek_angry__a08 (4)_intscaled.wav","greek","Angry","choice","true"
"null","null","audio-keyboard-response","144","525023","0.0-147.0","stim/final_stim_scaled/japanese_fear__F2_fear_regular_01__cut_intscaled.wav","","","","","","","stim/final_stim_scaled/japanese_fear__F2_fear_regular_01__cut_intscaled.wav","","","",""
"829","1","html-button-response","145","525853","0.0-148.0","<p>Which emotion did the speaker express?</p>","","","","","","","stim/final_stim_scaled/japanese_fear__F2_fear_regular_01__cut_intscaled.wav","japanese","Fear","choice","false"
"null","null","audio-keyboard-response","146","529262","0.0-149.0","stim/final_stim_scaled/japanese_angry__F2_anger_regular_08__cut_intscaled.wav","","","","","","","stim/final_stim_scaled/japanese_angry__F2_anger_regular_08__cut_intscaled.wav","","","",""
"852","0","html-button-response","147","530115","0.0-150.0","<p>Which emotion did the speaker express?</p>","","","","","","","stim/final_stim_scaled/japanese_angry__F2_anger_regular_08__cut_intscaled.wav","japanese","Angry","choice","false"
"null","null","audio-keyboard-response","148","535442","0.0-151.0","stim/final_stim_scaled/thai_angry__s008_clip_actor016_script2_2_2b_intscaled.wav","","","","","","","stim/final_stim_scaled/thai_angry__s008_clip_actor016_script2_2_2b_intscaled.wav","","","",""
"4694","2","html-button-response","149","540137","0.0-152.0","<p>Which emotion did the speaker express?</p>","","","","","","","stim/final_stim_scaled/thai_angry__s008_clip_actor016_script2_2_2b_intscaled.wav","thai","Angry","choice","true"
"null","null","audio-keyboard-response","150","544842","0.0-153.0","stim/final_stim_scaled/japanese_fear__F1_fear_regular_24__cut_intscaled.wav","","","","","","","stim/final_stim_scaled/japanese_fear__F1_fear_regular_24__cut_intscaled.wav","","","",""
"960","1","html-button-response","151","545804","0.0-154.0","<p>Which emotion did the speaker express?</p>","","","","","","","stim/final_stim_scaled/japanese_fear__F1_fear_regular_24__cut_intscaled.wav","japanese","Fear","choice","false"
"null","null","audio-keyboard-response","152","548403","0.0-155.0","stim/final_stim_scaled/japanese_angry__F1_anger_regular_23__cut_intscaled.wav","","","","","","","stim/final_stim_scaled/japanese_angry__F1_anger_regular_23__cut_intscaled.wav","","","",""
"1751","4","html-button-response","153","550154","0.0-156.0","<p>Which emotion did the speaker express?</p>","","","","","","","stim/final_stim_scaled/japanese_angry__F1_anger_regular_23__cut_intscaled.wav","japanese","Angry","choice","false"
"null","null","audio-keyboard-response","154","554793","0.0-157.0","stim/final_stim_scaled/japanese_happy__M1_happy_regular_27__cut_intscaled.wav","","","","","","","stim/final_stim_scaled/japanese_happy__M1_happy_regular_27__cut_intscaled.wav","","","",""
"1468","5","html-button-response","155","556262","0.0-158.0","<p>Which emotion did the speaker express?</p>","","","","","","","stim/final_stim_scaled/japanese_happy__M1_happy_regular_27__cut_intscaled.wav","japanese","Happy","choice","false"
"null","null","audio-keyboard-response","156","558353","0.0-159.0","stim/final_stim_scaled/japanese_happy__F2_happy_regular_22__cut_intscaled.wav","","","","","","","stim/final_stim_scaled/japanese_happy__F2_happy_regular_22__cut_intscaled.wav","","","",""
"816","0","html-button-response","157","559170","0.0-160.0","<p>Which emotion did the speaker express?</p>","","","","","","","stim/final_stim_scaled/japanese_happy__F2_happy_regular_22__cut_intscaled.wav","japanese","Happy","choice","true"
"null","null","audio-keyboard-response","158","562102","0.0-161.0","stim/final_stim_scaled/japanese_surprise__M2_surprise_regular_22__cut_intscaled.wav","","","","","","","stim/final_stim_scaled/japanese_surprise__M2_surprise_regular_22__cut_intscaled.wav","","","",""
"769","4","html-button-response","159","562872","0.0-162.0","<p>Which emotion did the speaker express?</p>","","","","","","","stim/final_stim_scaled/japanese_surprise__M2_surprise_regular_22__cut_intscaled.wav","japanese","Surprise","choice","true"
"109860","{""language_guesses"":""Korean"",""tech_difficulity"":""I had no issues."",""distraction"":""Not at all"",""other_languages"":""I've taken 2 years of Spanish, one in high school and one in college."",""media_exposures"":""The only non-native language I have seen in television is Narcos, which is Spanish. "",""family_exposure"":""NA"",""comments"":""NA""}","survey-html-form","160","672740","0.0-163.0","","","","","","","","","","","",""
"18527","0","html-button-response","161","691270","0.0-164.0","<h2>Your Results</h2>
                  <p><strong>Overall:</strong> 41/75 correct 
                    (55%)</p><p><strong>JAPANESE:</strong> 10/20 correct 
            (50%)</p><p><strong>THAI:</strong> 8/16 correct 
            (50%)</p><p><strong>Canadian French:</strong> 15/24 correct 
            (63%)</p><p><strong>GREEK:</strong> 8/15 correct 
            (53%)</p><p>Press Continue to finish.</p>","","","","","","","","","","",""
